{
	"resourceType": "Bundle",
	"id": "86e3371d-1c15-4862-9552-d9560f8292ba",
	"meta": {
		"lastUpdated": "2021-11-26T15:00:00+00:00",
		"profile": [
			"https://fhir.nhs.uk/StructureDefinition/BARSBundleMessage"
		]
	},
	"type": "message",
	"timestamp": "2021-11-26T15:00:00+00:00",
	"entry": [
		{
			"fullUrl": "urn:uuid:1cbdfb97-5859-48a4-8301-d54eab818d68",
			"resource": {
				"resourceType": "MessageHeader",
				"id": "1d9862fa-c7cd-40ef-ab5b-128d9bcc4490",
				"meta": {
					"lastUpdated": "2021-11-26T15:00:00+00:00",
					"profile": [
						"https://fhir.nhs.uk/StructureDefinition/BARSMessageHeader-servicerequest-request"
					]
				},
				"extension": [
					{
						"extension": [
							{
								"url": "RequesterCDSSsoftware",
								"valueString": "RequesterCDSSsoftware"
							},
							{
								"url": "RequesterCDSSversion",
								"valueString": "RequesterCDSSversion"
							}
						],
						"url": "https://fhir.nhs.uk/StructureDefinition/CDSSExtension"
					}
				],
				"eventCoding": {
					"system": "https://fhir.nhs.uk/CodeSystem/message-event-servicerequest",
					"code": "servicerequest-request"
				},
				"destination": [
					{
						"endpoint": "urn:uuid:4d1def34-68a7-4a37-8152-65f0e90329ee",
						"receiver": {
							"reference": "urn:uuid:10397afd-479c-42ea-9d5d-e4024481e0f8"
						}
					}
				],
				"sender": {
					"reference": "urn:uuid:07939a0c-2854-46ff-9282-ad906bc93679"
				},
				"source": {
					"name": "999 Emergency service",
					"software": "Patient Manager",
					"version": "1.7",
					"contact": {
						"system": "phone",
						"value": "+44 (0113) 123 4567"
					},
					"endpoint": "[ODSCode]:[DoSId]"
				},
				"reason": {
					"coding": [
						{
							"system": "https://fhir.nhs.uk/CodeSystem/message-reason-servicerequest",
							"code": "new"
						}
					]
				},
				"focus": [
					{
						"reference": "urn:uuid:236bb75d-90ef-461f-b71e-fde7f899802c"
					}
				]
			}
		},
		{
			"fullUrl": "urn:uuid:236bb75d-90ef-461f-b71e-fde7f899802c",
			"resource": {
				"resourceType": "ServiceRequest",
				"id": "71d2b38e-b81c-4894-a522-6a65265b1d58",
				"meta": {
					"lastUpdated": "2021-11-26T15:00:00+00:00",
					"profile": [
						"https://fhir.nhs.uk/StructureDefinition/BARSServiceRequest-request-validation"
					]
				},
				"status": "active",
				"intent": "plan",
				"category": [
					{
						"coding": [
							{
								"system": "https://fhir.nhs.uk/CodeSystem/message-category-servicerequest",
								"code": "validation",
								"display": "For Validation"
							}
						]
					}
				],
				"subject": {
					"reference": "urn:uuid:9589fb37-87a2-48d8-968f-b371429208a8"
				},
				"encounter": {
					"reference": "urn:uuid:8c63d621-4d86-4f57-8699-e8e22d49935d"
				},
				"occurrencePeriod": {
					"start": "2021-11-26T15:00:00+00:00",
					"end": "2021-11-26T15:20:00+00:00"
				},
				"authoredOn": "2021-11-26T15:00:00+00:00",
				"requester": {
					"reference": "urn:uuid:7d948662-bade-450e-b6c5-9bb6ee39cb56"
				},
				"performer": [
					{
						"reference": "d5ffd0cd-ec7e-48a1-84f1-91f4c0eb8fc5"
					}
				],
				"locationReference": [
					{
						"reference": "urn:uuid:2ec99e82-a0af-4b70-bd53-1869d84b2ad1"
					}
				],
				"reasonCode": [
					{
						"coding": [
							{
								"system": "https://fhir.nhs.uk/CodeSystem/sd-codes",
								"code": "1122334455",
								"display": "SD Code example"
							}
						]
					}
				]
			}
		},
		{
			"fullUrl": "urn:uuid:8c63d621-4d86-4f57-8699-e8e22d49935d",
			"resource": {
				"resourceType": "Encounter",
				"id": "ddd8fb02-876b-4201-9a11-0b670f5f25e8",
				"meta": {
					"lastUpdated": "2021-11-26T15:00:00+00:00",
					"profile": [
						"https://fhir.hl7.org.uk/StructureDefinition/UKCore-Encounter"
					]
				},
				"status": "triaged",
				"class": {
					"system": "http://terminology.hl7.org/CodeSystem/v3-ActCode",
					"code": "EMER",
					"display": "emergency"
				},
				"subject": {
					"reference": "urn:uuid:9589fb37-87a2-48d8-968f-b371429208a8"
				},
				"episodeOfCare": [
					{
						"reference": "urn:uuid:d877b820-e72b-44d1-a627-195f54bfc606"
					}
				],
				"period": {
					"start": "2021-11-26T15:00:00+00:00"
				}
			}
		},
		{
			"fullUrl": "urn:uuid:9589fb37-87a2-48d8-968f-b371429208a8",
			"resource": {
				"resourceType": "Patient",
				"id": "091529f5-345d-4cc7-ac95-678e79f446cc",
				"meta": {
					"lastUpdated": "2021-11-26T15:00:00+00:00",
					"profile": [
						"https://fhir.hl7.org.uk/StructureDefinition/UKCore-Patient"
					]
				},
				"identifier": [
					{
						"extension": [
							{
								"url": "https://fhir.hl7.org.uk/StructureDefinition/Extension-UKCore-NHSNumberVerificationStatus",
								"valueCodeableConcept": {
									"coding": [
										{
											"system": "https://fhir.hl7.org.uk/CodeSystem/UKCore-NHSNumberVerificationStatus",
											"code": "number-present-and-verified",
											"display": "Number present and verified"
										}
									]
								}
							}
						],
						"system": "https://fhir.nhs.uk/Id/nhs-number",
						"value": "3478526985"
					}
				],
				"name": [
					{
						"use": "official",
						"text": "Mrs Julie Jones",
						"family": "Jones",
						"given": [
							"Julie"
						],
						"prefix": [
							"Mrs"
						]
					}
				],
				"telecom": [
					{
						"system": "phone",
						"value": "01138698975",
						"use": "home"
					}
				],
				"gender": "female",
				"birthDate": "1959-05-04",
				"address": [
					{
						"use": "home",
						"type": "both",
						"text": "22 Brightside Crescent, Overtown, West Yorkshire, LS10 4YU",
						"line": [
							"22 Brightside Crescent"
						],
						"city": "Overtown",
						"district": "West Yorkshire",
						"postalCode": "LS10 4YU"
					}
				],
				"contact": [
					{
						"extension": [
							{
								"extension": [
									{
										"url": "PreferredContactMethod",
										"valueCodeableConcept": {
											"coding": [
												{
													"system": "http://hl7.org/fhir/ValueSet/contact-point-system",
													"code": "phone",
													"display": "Phone"
												}
											]
										}
									}
								],
								"url": "https://fhir.hl7.org.uk/StructureDefinition/Extension-UKCore-ContactPreference"
							},
							{
								"url": "https://fhir.hl7.org.uk/StructureDefinition/Extension-UKCore-ContactRank",
								"valuePositiveInt": 1
							}
						],
						"relationship": [
							{
								"coding": [
									{
										"system": "http://terminology.hl7.org/CodeSystem/v2-0131",
										"code": "U"
									}
								]
							},
							{
								"coding": [
									{
										"system": "http://terminology.hl7.org/CodeSystem/v2-0131",
										"code": "C"
									}
								]
							}
						],
						"name": {
							"family": "Grayson",
							"given": [
								"Jack"
							]
						},
						"telecom": [
							{
								"system": "phone",
								"value": "0789 1234567"
							}
						],
						"gender": "male"
					}
				],
				"communication": [
					{
						"language": {
							"coding": [
								{
									"system": "urn:ietf:bcp:47",
									"code": "en-GB",
									"display": "English (Great Britain)"
								}
							]
						},
						"preferred": true
					}
				]
			}
		},
		{
			"fullUrl": "urn:uuid:d5ffd0cd-ec7e-48a1-84f1-91f4c0eb8fc5",
			"resource": {
				"resourceType": "Organization",
				"id": "0f6777ab-6f97-4f02-90d8-af22fb2bf941",
				"meta": {
					"lastUpdated": "2021-11-26T15:00:00+00:00",
					"profile": [
						"https://fhir.hl7.org.uk/StructureDefinition/UKCore-Organization"
					]
				},
				"name": "Receiving/performing Organization"
			}
		},
		{
			"fullUrl": "urn:uuid:10397afd-479c-42ea-9d5d-e4024481e0f8",
			"resource": {
				"resourceType": "Organization",
				"id": "8293cbf5-f058-41d1-a43e-031367f5ab34",
				"meta": {
					"lastUpdated": "2021-11-26T15:00:00+00:00",
					"profile": [
						"https://fhir.hl7.org.uk/StructureDefinition/UKCore-Organization"
					]
				},
				"name": "Receiver Organization"
			}
		},
		{
			"fullUrl": "urn:uuid:07939a0c-2854-46ff-9282-ad906bc93679",
			"resource": {
				"resourceType": "Organization",
				"id": "e2a9d366-dcf4-45f2-90c6-9887c0a72406",
				"meta": {
					"lastUpdated": "2021-11-26T15:00:00+00:00",
					"profile": [
						"https://fhir.hl7.org.uk/StructureDefinition/UKCore-Organization"
					]
				},
				"name": "Sender Organization"
			}
		},
		{
			"fullUrl": "urn:uuid:2ec99e82-a0af-4b70-bd53-1869d84b2ad1",
			"resource": {
				"resourceType": "Location",
				"id": "596ab3d3-d77d-40d2-bd35-c660ed5c56f5",
				"meta": {
					"lastUpdated": "2021-11-26T15:00:00+00:00",
					"profile": [
						"https://fhir.hl7.org.uk/StructureDefinition/UKCore-Location"
					]
				},
				"extension": [
					{
						"extension": [
							{
								"url": "UPRN",
								"valueString": "0008755622"
							},
							{
								"url": "eastings",
								"valueString": "0.33424"
							},
							{
								"url": "northings",
								"valueString": "0.55634"
							}
						],
						"url": "https://fhir.nhs.uk/StructureDefinition/LocationExtension"
					}
				],
				"name": "Briggate corner",
				"address": {
					"line": [
						"20 The Headrow"
					],
					"city": "Leeds",
					"postalCode": "LS1 6PT",
					"country": "UK"
				},
				"position": {
					"longitude": 53.79957987629337,
					"latitude": -1.5417544014466307
				}
			}
		},
		{
			"fullUrl": "urn:uuid:7d948662-bade-450e-b6c5-9bb6ee39cb56",
			"resource": {
				"resourceType": "Practitioner",
				"id": "2b2f4bda-2243-4f28-95c7-ae4dbc80977e",
				"meta": {
					"lastUpdated": "2021-11-26T15:00:00+00:00",
					"profile": [
						"https://fhir.hl7.org.uk/StructureDefinition/UKCore-Practitioner"
					]
				},
				"identifier": [
					{
						"system": "https://fhir.nhs.uk/Id/sds-role-profile-id",
						"value": "PT2489"
					}
				],
				"name": [
					{
						"family": "BLAKE",
						"given": [
							"Marcy"
						]
					}
				],
				"telecom": [
					{
						"system": "phone",
						"value": "0205568263",
						"use": "work"
					}
				]
			}
		},
		{
			"fullUrl": "urn:uuid:b923aa53-2376-4015-a07d-afe8bf2310eb",
			"resource": {
				"resourceType": "PractitionerRole",
				"id": "2210f0d1-0db0-4cd4-9f62-e5d2f545bcd7",
				"meta": {
					"lastUpdated": "2021-11-26T15:00:00+00:00",
					"profile": [
						"https://fhir.hl7.org.uk/StructureDefinition/UKCore-PractitionerRole"
					]
				},
				"practitioner": {
					"reference": "urn:uuid:7d948662-bade-450e-b6c5-9bb6ee39cb56"
				},
				"organization": {
					"reference": "urn:uuid:33a33b58-648a-4453-b981-e21ea9ggb4hj"
				},
				"code": [
					{
						"coding": [
							{
								"system": "https://fhir.hl7.org.uk/ValueSet/UKCore-PractitionerRoleCode",
								"code": "224608005",
								"display": "Administrative healthcare staff"
							}
						]
					}
				],
				"specialty": [
					{
						"coding": [
							{
								"system": "http://snomed.info/sct",
								"code": "408443003",
								"display": "General medical practice"
							}
						]
					}
				]
			}
		},
		{
			"fullUrl": "urn:uuid:c584542a-a1c6-4b77-a3e8-4a5b0b9cea09",
			"resource": {
				"resourceType": "Observation",
				"id": "def3e4b0-cf87-4ff8-b381-d816c760450f",
				"meta": {
					"lastUpdated": "2021-11-26T15:00:00+00:00",
					"profile": [
						"https://fhir.hl7.org.uk/StructureDefinition/UKCore-Observation"
					]
				},
				"status": "final",
				"code": {
					"coding": [
						{
							"system": "http://snomed.info/sct",
							"code": "271594007",
							"display": "Syncope (disorder)"
						}
					]
				},
				"subject": {
					"reference": "urn:uuid:9589fb37-87a2-48d8-968f-b371429208a8"
				},
				"effectiveDateTime": "2021-11-26T15:00:00+00:00"
			}
		},
		{
			"fullUrl": "urn:uuid:5b94d980-b9b6-42ce-8ca3-56676af6c0a7",
			"resource": {
				"resourceType": "Flag",
				"id": "af3f72fb-fad8-4300-b192-5b601d5cbf8c",
				"meta": {
					"lastUpdated": "2021-11-26T15:00:00+00:00",
					"profile": [
						"http://hl7.org/fhir/StructureDefinition/Flag"
					]
				},
				"status": "active",
				"category": [
					{
						"text": "Scene Safety"
					}
				],
				"code": {
					"text": "Patient has some scene safety issues."
				},
				"subject": {
					"reference": "urn:uuid:9589fb37-87a2-48d8-968f-b371429208a8"
				},
				"encounter": {
					"reference": "urn:uuid:8c63d621-4d86-4f57-8699-e8e22d49935d"
				}
			}
		}
	]
}