{
	"resourceType": "Bundle",
	"meta": {
		"profile": [
			"https://fhir.hl7.org.uk/StructureDefinition/UKCore-Bundle"
		]
	},
	"type": "message",
	"entry": [
		{
			"resource": {
				"resourceType": "MessageHeader",
				"meta": {
					"profile": [
						"https://fhir.hl7.org.uk/StructureDefinition/UKCore-MessageHeader"
					]
				},
				"eventCoding": {
					"system": "https://fhir.hl7.org.uk/ValueSet/UKCore-MessageEvent",
					"code": "371528001"
				},
				"reason": {
					"coding": [
						{
							"system": "http://terminology.hl7.org/CodeSystem/message-reasons-encounter",
							"code": "???"
						}
					]
				},
				"source": {
					"name": "My organisation name",
					"software": "My software name",
					"endpoint": "https://My.System.nhs.uk"
				},
				"focus": {
					"reference": "Appointment/1172152b-3707-45b1-8e6a-4b2b7f0ba0bc",
					"type": "Appointment"
				}
			}
		},
		{
			"resource": {
				"resourceType": "Appointment",
				"id": "1172152b-3707-45b1-8e6a-4b2b7f0ba0bc",
				"status": "noshow",
				"cancelationReason": "pat",
				"meta": {
					"profile": [
						"https://fhir.hl7.org.uk/StructureDefinition/UKCore-Appointment"
					]
				},
				"slot": {
					"reference": "Slot/c3f6145e-1a26-4345-b3f2-dccbcba62049"
				},
				"participant": {
					"actor": {
						"reference": "Patient/1234567890"
					}
				},
				"basedOn": {
					"reference": "urn:uuid:f3d3e399-54d4-4d23-9e78-39c71821ddda",
					"type": "serviceRequest"
				}
			}
		},
		{
			"resource": {
				"meta": {
					"profile": [
						"https://fhir.hl7.org.uk/StructureDefinition/UKCore-Patient"
					]
				},
				"resourceType": "Patient",
				"identifier": [
					{
						"extension": [
							{
								"url": "https://fhir.hl7.org.uk/StructureDefinition/Extension-UKCore-NHSNumberVerificationStatus",
								"valueCodeableConcept": {
									"coding": [
										{
											"system": "https://fhir.hl7.org.uk/CodeSystem/UKCore-NHSNumberVerificationStatus",
											"code": "number-present-and-verified",
											"display": "Number present and verified"
										}
									]
								}
							}
						],
						"use": "official",
						"system": "https://fhir.nhs.uk/Id/nhs-number",
						"value": "9476719931"
					}
				]
			}
		},
		{
			"resource": {
				"resourceType": "Slot",
				"id": "c3f6145e-1a26-4345-b3f2-dccbcba62049",
				"serviceCategory": {
					"coding": [
						{
							"code": "14",
							"display": "Emergency Department"
						}
					]
				},
				"appointmentType": {
					"coding": [
						{
							"code": "EMERGENCY",
							"display": "Emergency appointment"
						}
					]
				},
				"meta": {
					"profile": [
						"https://fhir.hl7.org.uk/StructureDefinition/UKCore-Slot"
					]
				},
				"Schedule": {
					"reference": "Schedule/{ScheduleItem}"
				},
				"status": "free",
				"start": "2021-10-06T10:00:00.000+00:00",
				"end": "2021-10-06T11:00:00.000+00:00"
			}
		},
		{
			"resource": {
				"resourceType": "Schedule",
				"id": "{ScheduleItem}",
				"meta": {
					"profile": [
						"https://fhir.hl7.org.uk/StructureDefinition/UKCore-Schedule"
					]
				},
				"identifier": [
					{
						"system": "https://system.supplier.co.uk/Diary/id",
						"value": "8622dfdb-dc6a-47b6-b3a7-2eb2829db287"
					}
				],
				"actor": [
					{
						"reference": "HealthcareService/{HealcareServiceid}"
					},
					{
						"reference": "PractitionerRole/{PractitionerRoleid}"
					},
					{
						"reference": "Practitioner/{Practitionerid}"
					}
				]
			}
		},
		{
			"resource": {
				"resourceType": "HealthcareService",
				"id": "[HealcareServiceid]",
				"meta": {
					"profile": [
						"https://fhir.hl7.org.uk/StructureDefinition/UKCore-Healthservice"
					]
				},
				"identifier": [
					{
						"system": "https://system.supplier.co.uk/My/Healthcare/Services",
						"value": "100"
					}
				],
				"location": [
					{
						"reference": "Location/Locationid"
					}
				],
				"name": "Healthcare Service Name"
			}
		},
		{
			"resource": {
				"resourceType": "Practitioner",
				"id": "[Practitionerid]",
				"meta": {
					"profile": [
						"https://fhir.hl7.org.uk/StructureDefinition/UKCore-Practitioner"
					]
				},
				"name": [
					{
						"family": "Bloggs",
						"given": [
							"Joe"
						],
						"prefix": [
							"Dr"
						]
					}
				]
			}
		},
		{
			"resource": {
				"resourceType": "PractitionerRole",
				"id": "[PractitionerRoleid]",
				"meta": {
					"profile": [
						"https://fhir.hl7.org.uk/StructureDefinition/UKCore-PractitionerRole"
					]
				},
				"code": {
					"coding": [
						{
							"system": "https://fhir.hl7.org.uk/ValueSet/UKCore-PractitionerRoleCode",
							"version": "4.0.1",
							"code": "doctor",
							"display": "Doctor"
						}
					]
				}
			}
		},
		{
			"resource": {
				"resourceType": "Location",
				"id": "[Locationid]",
				"meta": {
					"profile": [
						"https://fhir.hl7.org.uk/StructureDefinition/UKCore-Location"
					]
				},
				"position": {
					"longitude": "143.20196",
					"latitude": "-37.22866"
				},
				"name": "Healthcare Service Location"
			}
		}
	]
}