{
    "resourceType": "Bundle",
    "id": "86e3371d-1c15-4862-9552-d9560f8292ba",
    "meta": {
        "profile":  [
            "https://fhir.nhs.uk/StructureDefinition/BARSUKCoreBundle"
        ],
        "lastUpdated": "2021-10-11T15:23:30+00:00"
    },
    "timestamp": "2021-10-11T12:15:10+00:00",
    "type": "message",
    "entry":  [
        {
            "fullUrl": "urn:uuid:1cbdfb97-5859-48a4-8301-d54eab818d68",
            "resource": {
                "resourceType": "MessageHeader",
                "id": "1cbdfb97-5859-48a4-8301-d54eab818d68",
                "meta": {
                    "profile":  [
                        "https://fhir.nhs.uk/StructureDefinition/BARSUKCoreMessageHeader"
                    ]
                },
                "eventCoding": {
                    "system": "https://fhir.nhs.uk/CodeSystem/message-event",
                    "code": "admin-notify"
                },
                "destination":  [
                    {
                        "receiver": {
                            "reference": "urn:uuid:10397afd-479c-42ea-9d5d-e4024481e0f8"
                        }
                    }
                ],
                "sender": {
                    "reference": "urn:uuid:07939a0c-2854-46ff-9282-ad906bc93679"
                },
                "source": {
                    "name": "Emergency service",
                    "software": "Anon Patient Manager",
                    "version": "2.1.45",
                    "contact": {
                        "system": "phone",
                        "value": "+44 (0113) 123 4567"
                    },
                    "endpoint": "13p:54.77.23.13:0494"
                },
                "reason": {
                    "coding":  [
                        {
                            "system": "https://fhir.nhs.uk/CodeSystem/message-reasons",
                            "code": "new"
                        }
                    ]
                },
                "focus":  [
                    {
                        "reference": "urn:uuid:236bb75d-90ef-461f-b71e-fde7f899802c"
                    }
                ]
            }
        },
        {
            "fullUrl": "urn:uuid:236bb75d-90ef-461f-b71e-fde7f899802c",
            "resource": {
                "resourceType": "ServiceRequest",
                "id": "236bb75d-90ef-461f-b71e-fde7f899802c",
                "meta": {
                    "profile":  [
                        "https://fhir.nhs.uk/StructureDefinition/BARSUKCoreServiceRequest"
                    ]
                },
                "status": "active",
                "intent": "plan",
                "subject": {
                    "reference": "urn:uuid:9589fb37-87a2-48d8-968f-b371429208a8"
                },
                "encounter": {
                    "reference": "urn:uuid:8c63d621-4d86-4f57-8699-e8e22d49935d"
                },
                "occurrencePeriod": {
                    "start": "2021-10-13T16:20:27+07:00"
                },
                "authoredOn": "2021-10-13T16:28:00+07:00",
                "requester": {
                    "reference": "urn:uuid:7d948662-bade-450e-b6c5-9bb6ee39cb56"
                },
                "performer":  [
                    {
                        "reference": "d5ffd0cd-ec7e-48a1-84f1-91f4c0eb8fc5"
                    }
                ],
                "locationReference":  [
                    {
                        "reference": "urn:uuid:2ec99e82-a0af-4b70-bd53-1869d84b2ad1"
                    }
                ],
                "reasonCode":  [
                    {
                        "coding":  [
                            {
                                "system": "https://fhir.nhs.uk/CodeSystem/BARS-clinical-urgency",
                                "code": "clin-1",
                                "display": "Progress urgently"
                            }
                        ]
                    }
                ]
            }
        },
        {
            "fullUrl": "urn:uuid:8c63d621-4d86-4f57-8699-e8e22d49935d",
            "resource": {
                "resourceType": "Encounter",
                "id": "8c63d621-4d86-4f57-8699-e8e22d49935d",
                "meta": {
                    "profile":  [
                        "https://fhir.hl7.org.uk/StructureDefinition/UKCore-Encounter"
                    ]
                },
                "status": "in-progress",
                "class": {
                    "system": "http://terminology.hl7.org/CodeSystem/v3-ActCode",
                    "code": "EMER",
                    "display": "emergency"
                },
                "subject": {
                    "reference": "urn:uuid:9589fb37-87a2-48d8-968f-b371429208a8"
                },
                "episodeOfCare":  [
                    {
                        "reference": "urn:uuid:d877b820-e72b-44d1-a627-195f54bfc606"
                    }
                ],
                "period": {
                    "start": "2021-02-19T07:15:00+10:00"
                }
            }
        },
        {
            "fullUrl": "urn:uuid:9589fb37-87a2-48d8-968f-b371429208a8",
            "resource": {
                "resourceType": "Patient",
                "id": "9589fb37-87a2-48d8-968f-b371429208a8",
                "meta": {
                    "profile":  [
                        "https://fhir.nhs.uk/StructureDefinition/BARSUKCorePatient"
                    ]
                },
                "identifier":  [
                    {
                        "extension":  [
                            {
                                "url": "https://fhir.hl7.org.uk/StructureDefinition/Extension-UKCore-NHSNumberVerificationStatus",
                                "valueCodeableConcept": {
                                    "coding":  [
                                        {
                                            "system": "https://fhir.hl7.org.uk/CodeSystem/UKCore-NHSNumberVerificationStatus",
                                            "code": "number-present-and-verified",
                                            "display": "Number present and verified"
                                        }
                                    ]
                                }
                            }
                        ],
                        "system": "https://fhir.nhs.uk/Id/nhs-number",
                        "value": "3478526985"
                    }
                ],
                "name":  [
                    {
                        "use": "official",
                        "text": "Mrs Julie Jones",
                        "family": "Jones",
                        "given":  [
                            "Julie"
                        ],
                        "prefix":  [
                            "Mrs"
                        ]
                    }
                ],
                "telecom":  [
                    {
                        "system": "phone",
                        "value": "01138698975",
                        "use": "home"
                    }
                ],
                "gender": "female",
                "birthDate": "1959-05-04",
                "address":  [
                    {
                        "use": "home",
                        "type": "both",
                        "text": "22 Brightside Crescent, Overtown, West Yorkshire, LS10 4YU",
                        "line":  [
                            "22 Brightside Crescent"
                        ],
                        "city": "Overtown",
                        "district": "West Yorkshire",
                        "postalCode": "LS10 4YU"
                    }
                ]
            }
        },
        {
            "fullUrl": "urn:uuid:d5ffd0cd-ec7e-48a1-84f1-91f4c0eb8fc5",
            "resource": {
                "resourceType": "Organization",
                "id": "d5ffd0cd-ec7e-48a1-84f1-91f4c0eb8fc5",
                "name": "Receiving/performing Organization"
            }
        },
        {
            "fullUrl": "urn:uuid:10397afd-479c-42ea-9d5d-e4024481e0f8",
            "resource": {
                "resourceType": "Organization",
                "id": "10397afd-479c-42ea-9d5d-e4024481e0f8",
                "name": "Receiver Organization"
            }
        },
        {
            "fullUrl": "urn:uuid:07939a0c-2854-46ff-9282-ad906bc93679",
            "resource": {
                "resourceType": "Organization",
                "id": "07939a0c-2854-46ff-9282-ad906bc93679",
                "name": "Sender Organization"
            }
        },
        {
            "fullUrl": "urn:uuid:2ec99e82-a0af-4b70-bd53-1869d84b2ad1",
            "resource": {
                "resourceType": "Location",
                "id": "2ec99e82-a0af-4b70-bd53-1869d84b2ad1",
                "meta": {
                    "profile":  [
                        "https://fhir.hl7.org.uk/StructureDefinition/UKCore-Location"
                    ]
                },
                "name": "Briggate corner",
                "alias":  [
                    "72572445"
                ],
                "address": {
                    "line":  [
                        "20 The Headrow"
                    ],
                    "city": "Leeds",
                    "postalCode": "LS1 6PT",
                    "country": "UK"
                },
                "position": {
                    "longitude": 53.79957987629337,
                    "latitude": -1.5417544014466307
                }
            }
        },
        {
            "fullUrl": "urn:uuid:7d948662-bade-450e-b6c5-9bb6ee39cb56",
            "resource": {
                "resourceType": "Practitioner",
                "id": "7d948662-bade-450e-b6c5-9bb6ee39cb56",
                "meta": {
                    "profile":  [
                        "https://fhir.hl7.org.uk/StructureDefinition/UKCore-Practitioner"
                    ]
                },
                "identifier":  [
                    {
                        "system": "https://fhir.nhs.uk/Id/sds-role-profile-id",
                        "value": "PT2489"
                    }
                ],
                "name":  [
                    {
                        "family": "BLAKE",
                        "given":  [
                            "Marcy"
                        ]
                    }
                ],
                "telecom":  [
                    {
                        "system": "phone",
                        "value": "0205568263",
                        "use": "work"
                    }
                ]
            }
        },
        {
            "fullUrl": "urn:uuid:b923aa53-2376-4015-a07d-afe8bf2310eb",
            "resource": {
                "resourceType": "PractitionerRole",
                "id": "b923aa53-2376-4015-a07d-afe8bf2310eb",
                "meta": {
                    "profile":  [
                        "https://fhir.hl7.org.uk/StructureDefinition/UKCore-PractitionerRole"
                    ]
                },
                "practitioner": {
                    "reference": "urn:uuid:7d948662-bade-450e-b6c5-9bb6ee39cb56"
                },
                "organization": {
                    "reference": "urn:uuid:33a33b58-648a-4453-b981-e21ea9ggb4hj"
                },
                "code":  [
                    {
                        "coding":  [
                            {
                                "system": "https://fhir.hl7.org.uk/ValueSet/UKCore-PractitionerRoleCode",
                                "code": "224608005",
                                "display": "Administrative healthcare staff"
                            }
                        ]
                    }
                ],
                "specialty":  [
                    {
                        "coding":  [
                            {
                                "system": "http://snomed.info/sct",
                                "code": "408443003",
                                "display": "General medical practice"
                            }
                        ]
                    }
                ]
            }
        }
    ]
}
