<Bundle xmlns="http://hl7.org/fhir">
	<id value="99173438-ebba-453a-998d-8f1ef006d76e"/>
	<meta>
		<profile value="https://fhir.hl7.org.uk/StructureDefinition/UKCore-Bundle" />
		<lastUpdated value="2021-10-11T15:01:30+00:00"/>
	</meta>
	<type value="message" />
	<timestamp value="2021-10-11T12:15:10+00:00" />
	<entry>
		<fullUrl value="urn:uuid:c5957fdd-097b-409d-a406-49c52ceef2cd"/>
		<resource>
			<MessageHeader>
				<id value="19f6bf75-3cb3-4059-bf32-10d4666ec5c0"/>
				<meta>
					<profile value="https://fhir.hl7.org.uk/StructureDefinition/UKCore-MessageHeader"/>
					<lastUpdated value="2021-10-11T15:01:30+00:00"/>
				</meta>
				<eventCoding>
					<system value="https://fhir.nhs.uk/CodeSystem/message-event-servicerequest"/>
					<code value="booking-request"/>
				</eventCoding>
				<reason>
					<coding>
						<system value="https://fhir.nhs.uk/CodeSystem/message-reason-servicerequest"/>
						<code value="new"/>
					</coding>
				</reason>
				<destination>
					<receiver>
						<reference value=":uuid:43a42f7a-a6f2-42a5-a8f0-fc85abf8c3fa"/>
					</receiver>
				</destination>
				<sender>
					<reference value="urn:uuid:6324587b-eb70-4333-9db2-22d48f64c9ba"/>
				</sender>
				<source>
					<name value="My organisation name"/>
					<software value="My software name"/>
					<endpoint value="https://My.System.nhs.uk"/>
				</source>
				<focus>
					<reference value="urn:uuid:aca94bdb-2e38-4399-9ece-2ba083ce65b5"/>
					<type value="Appointment"/>
				</focus>
			</MessageHeader>
		</resource>
	</entry>
	<entry>
		<fullUrl value="urn:uuid:aca94bdb-2e38-4399-9ece-2ba083ce65b5"/>
		<resource>
			<Appointment>
				<id value="e284470a-6695-4c95-b2ad-fa26b3a486c7"/>
				<status value="booked"/>
				<description value="Reason for calling-"/>
				<meta>
					<profile value="https://fhir.hl7.org.uk/StructureDefinition/UKCore-Appointment"/>
					<lastUpdated value="2021-10-11T15:01:30+00:00"/>
				</meta>
				<start value="2021-10-12T12:30:30+00:00"/>
				<end value="2021-10-12T12:40:30+00:00"/>
				<slot>
					<reference value="Slot/c3f6145e-1a26-4345-b3f2-dccbcba62049"/>
				</slot>
				<created value="2021-10-11T15:01:30+00:00"/>
				<participant>
					<actor>
						<reference value="Patient/9476719931"/>
					</actor>
				</participant>
				<basedOn>
				    <!--  This service requests links to the one received in file - ValidationRequest (HTTP Response).xml  -->
					<reference value="ServiceRequest/71d2b38e-b81c-4894-a522-6a65265b1d58"/>
					<type value="serviceRequest"/>
				</basedOn>
			</Appointment>
		</resource>
	</entry>
	<entry>
		<fullUrl value="urn:uuid:788660eb-d2c9-4773-abd4-318484673fb2"/>
		<resource>
			<Patient>
				<id value="39907365-9051-4108-b460-f657d4d5ff72"/>
				<meta>
					<profile value="https://fhir.hl7.org.uk/StructureDefinition/UKCore-Patient"/>
					<lastUpdated value="2021-10-11T15:01:30+00:00"/>
				</meta>
				<identifier>
					<extension>
						<url value="https://fhir.hl7.org.uk/StructureDefinition/Extension-UKCore-NHSNumberVerificationStatus"/>
						<valueCodeableConcept>
							<coding>
								<system value="https://fhir.hl7.org.uk/CodeSystem/UKCore-NHSNumberVerificationStatus"/>
								<code value="number-present-and-verified"/>
								<display value="Number present and verified"/>
							</coding>
						</valueCodeableConcept>
					</extension>
					<use value="official"/>
					<system value="https://fhir.nhs.uk/Id/nhs-number"/>
					<value value="9476719931"/>
				</identifier>
				<name>
					<use value="official"/>
					<family value="Chalmers"/>
					<given value="Peter"/>
					<prefix value="Mr"/>
				</name>
				<telecom>
					<system value="phone"/>
					<value value="01234 567 890"/>
					<use value="home"/>
					<rank value="1"/>
				</telecom>
				<gender value="male"/>
				<birthDate value="1974-12-25"/>
				<address>
					<use value="home"/>
					<text value="123 High Street, Leeds LS1 4HR"/>
					<line value="123 High Street"/>
					<line value="Leeds"/>
					<city value="Leeds"/>
					<postalCode value="LS1 4HR"/>
				</address>
			</Patient>
		</resource>
	</entry>
	<entry>
		<fullUrl value="urn:uuid:deb4c4b3-870b-4599-84df-5e54cef7afda"/>
		<resource>
			<Slot>
				<id value="c3f6145e-1a26-4345-b3f2-dccbcba62049"/>
				<serviceCategory>
					<coding>
						<code value="14"/>
						<display value="Emergency Department"/>
					</coding>
				</serviceCategory>
				<appointmentType>
					<coding>
						<code value="EMERGENCY"/>
						<display value="Emergency appointment"/>
					</coding>
				</appointmentType>
				<meta>
					<profile value="https://fhir.hl7.org.uk/StructureDefinition/UKCore-Slot"/>
					<lastUpdated value="2021-10-11T15:01:30+00:00"/>
				</meta>
				<Schedule>
					<reference value="Schedule/{ScheduleItem}"/>
				</Schedule>
				<status value="busy"/>
				<end value="2021-10-06T11:00:00.000+00:00"/>
				<start value="2021-10-06T10:00:00.000+00:00"/>
			</Slot>
		</resource>
	</entry>
	<entry>
		<fullUrl value="urn:uuid:3a62607b-df65-4932-940c-14262787f62d"/>
		<resource>
			<Schedule>
				<id value="{ScheduleItem}"/>
				<meta>
					<profile value="https://fhir.hl7.org.uk/StructureDefinition/UKCore-Schedule"/>
					<lastUpdated value="2021-10-11T15:01:30+00:00"/>
				</meta>
				<identifier>
					<system value="https://system.supplier.co.uk/Diary/id"/>
					<value value="8622dfdb-dc6a-47b6-b3a7-2eb2829db287"/>
				</identifier>
				<actor>
					<reference value="HealthcareService/{HealcareServiceid}"/>
				</actor>
				<actor>
					<reference value="PractitionerRole/{PractitionerRoleid}"/>
				</actor>
				<actor>
					<reference value="Practitioner/{Practitionerid}"/>
				</actor>
			</Schedule>
		</resource>
	</entry>
	<entry>
		<fullUrl value="urn:uuid:e5fd53eb-7b1d-496d-bbf8-5c9dc7bd761b"/>
		<resource>
			<HealthcareService>
				<id value="[HealcareServiceid]"/>
				<meta>
					<profile value="https://fhir.hl7.org.uk/StructureDefinition/UKCore-Healthservice"/>
					<lastUpdated value="2021-10-11T15:01:30+00:00"/>
				</meta>
				<identifier>
					<system value="https://system.supplier.co.uk/My/Healthcare/Services"/>
					<value value="100"/>
				</identifier>
				<location>
					<reference value="Location/Locationid"/>
				</location>
				<name value="Healthcare Service Name"/>
			</HealthcareService>
		</resource>
	</entry>
	<entry>
		<fullUrl value="urn:uuid:6daaadd8-56e0-4d74-8350-1632331c5452"/>
		<resource>
			<Practitioner>
				<id value="[Practitionerid]"/>
				<meta>
					<profile value="https://fhir.hl7.org.uk/StructureDefinition/UKCore-Practitioner"/>
					<lastUpdated value="2021-10-11T15:01:30+00:00"/>
				</meta>
				<name>
					<family value="Bloggs"/>
					<given value="Joe"/>
					<prefix value="Dr"/>
				</name>
			</Practitioner>
		</resource>
	</entry>
	<entry>
		<fullUrl value="urn:uuid:52428e73-0a5c-455d-8ff5-cd080e557082"/>
		<resource>
			<PractitionerRole>
				<id value="[PractitionerRoleid]"/>
				<meta>
					<profile value="https://fhir.hl7.org.uk/StructureDefinition/UKCore-PractitionerRole"/>
					<lastUpdated value="2021-10-11T15:01:30+00:00"/>
				</meta>
				<code>
					<coding>
						<system value="https://fhir.hl7.org.uk/ValueSet/UKCore-PractitionerRoleCode"/>
						<version value="4.0.1"/>
						<code value="doctor"/>
						<display value="Doctor"/>
					</coding>
				</code>
			</PractitionerRole>
		</resource>
	</entry>
	<entry>
		<fullUrl value="urn:uuid:860e4c37-4e36-45fb-8fca-41132cd937a5"/>
		<resource>
			<Location>
				<id value="[Locationid]"/>
				<meta>
					<profile value="https://fhir.hl7.org.uk/StructureDefinition/UKCore-Location"/>
					<lastUpdated value="2021-10-11T15:01:30+00:00"/>
				</meta>
				<position>
					<longitude value="143.20196"/>
					<latitude value="-37.22866"/>
				</position>
				<name value="Healthcare Service Location"/>
			</Location>
		</resource>
	</entry>
	<entry>
		<fullUrl value="urn:uuid:43a42f7a-a6f2-42a5-a8f0-fc85abf8c3fa"/>
		<resource>
			<Organization>
				<id value="09017012-e82d-4cb0-9139-9159a77d25a6"/>
				<meta>
					<profile value="https://fhir.hl7.org.uk/StructureDefinition/UKCore-Organization"/>
					<lastUpdated value="2021-10-11T15:23:30+00:00"/>
				</meta>
				<name value="ORIGINAL Receiving/performing Organization"/>
			</Organization>
		</resource>
	</entry>
	<entry>
		<fullUrl value="urn:uuid:6324587b-eb70-4333-9db2-22d48f64c9ba"/>
		<resource>
			<Organization>
				<id value="adb0016f-976e-4568-8a8d-2bfe26254990"/>
				<meta>
					<profile value="https://fhir.hl7.org.uk/StructureDefinition/UKCore-Organization"/>
					<lastUpdated value="2021-10-11T15:23:30+00:00"/>
				</meta>
				<name value="ORIGINAL Sender Organization"/>
			</Organization>
		</resource>
	</entry>
</Bundle>