{
    "resourceType": "Bundle",
    "id": "86e3371d-1c15-4862-9552-d9560f8292ba",
    "meta": {
        "versionId": "1.1.0-alpha",
        "lastUpdated": "2022-06-01T15:00:00+00:00",
        "profile":  [
            "https://fhir.nhs.uk/StructureDefinition/BARSBundleMessage"
        ]
    },
    "type": "message",
    "timestamp": "2021-11-26T15:00:00+00:00",
    "entry":  [
        {
            "fullUrl": "urn:uuid:1cbdfb97-5859-48a4-8301-d54eab818d68",
            "resource": {
                "resourceType": "MessageHeader",
                "meta": {
                    "lastUpdated": "2021-11-26T15:00:00+00:00",
                    "profile":  [
                        "https://fhir.nhs.uk/StructureDefinition/BARSMessageHeader-servicerequest-request"
                    ]
                },
                "extension":  [
                    {
                        "url": "https://fhir.nhs.uk/StructureDefinition/CDSSExtension",
                        "extension":  [
                            {
                                "url": "RequesterCDSSsoftware",
                                "valueString": "Pathways"
                            },
                            {
                                "url": "RequesterCDSSversion",
                                "valueString": "30.2.0"
                            }
                        ]
                    }
                ],
                "eventCoding": {
                    "system": "https://fhir.nhs.uk/CodeSystem/message-events-bars",
                    "code": "servicerequest-request"
                },
                "destination":  [
                    {
                        "endpoint": "http://fhir.nhs.uk/Id/dos-service-id|111111111",
                        "receiver": {
                            "reference": "urn:uuid:10397afd-479c-42ea-9d5d-e4024481e0f8"
                        }
                    }
                ],
                "sender": {
                    "reference": "urn:uuid:07939a0c-2854-46ff-9282-ad906bc93679"
                },
                "source": {
                    "name": "Emergency service",
                    "software": "Patient Manager",
                    "version": "1.7",
                    "contact": {
                        "system": "phone",
                        "value": "+44 (0113) 123 4567"
                    },
                    "endpoint": "http://fhir.nhs.uk/Id/dos-service-id|2222222222"
                },
                "reason": {
                    "coding":  [
                        {
                            "system": "https://fhir.nhs.uk/CodeSystem/message-reason-bars",
                            "code": "new"
                        }
                    ]
                },
                "focus":  [
                    {
                        "reference": "urn:uuid:236bb75d-90ef-461f-b71e-fde7f899802c"
                    }
                ],
                "definition": "https://fhir.nhs.uk/MessageDefinition/bars-message-servicerequest-request-validation"
            }
        },
        {
            "fullUrl": "urn:uuid:236bb75d-90ef-461f-b71e-fde7f899802c",
            "resource": {
                "resourceType": "ServiceRequest",
                "meta": {
                    "lastUpdated": "2021-11-26T15:00:00+00:00",
                    "profile":  [
                        "https://fhir.nhs.uk/StructureDefinition/BARSServiceRequest-request-validation"
                    ]
                },
                "basedOn":  [
                    {
                        "reference": "urn:uuid:68d3c42e-f76e-4f66-9498-d96e1040c81c"
                    }
                ],
                "status": "active",
                "intent": "plan",
                "category":  [
                    {
                        "coding":  [
                            {
                                "system": "https://fhir.nhs.uk/CodeSystem/message-category-servicerequest",
                                "code": "validation",
                                "display": "For Validation"
                            }
                        ]
                    }
                ],
                "subject": {
                    "reference": "urn:uuid:9589fb37-87a2-48d8-968f-b371429208a8"
                },
                "encounter": {
                    "reference": "urn:uuid:8c63d621-4d86-4f57-8699-e8e22d49935d"
                },
                "occurrencePeriod": {
                    "start": "2021-11-26T15:00:00+00:00",
                    "end": "2021-11-26T15:20:00+00:00"
                },
                "requester": {
                    "reference": "urn:uuid:7d948662-bade-450e-b6c5-9bb6ee39cb56"
                },
                "performer":  [
                    {
                        "reference": "urn:uuid:d482d092-6efc-4eef-b4a0-730718b1fbfd"
                    }
                ],
                "locationReference":  [
                    {
                        "reference": "urn:uuid:2ec99e82-a0af-4b70-bd53-1869d84b2ad1"
                    }
                ]
            }
        },
        {
            "fullUrl": "urn:uuid:d482d092-6efc-4eef-b4a0-730718b1fbfd",
            "resource": {
                "resourceType": "HealthcareService",
                "meta": {
                    "lastUpdated": "2021-11-26T15:00:00+00:00",
                    "profile":  [
                        "http://hl7.org/fhir/StructureDefinition/HealthcareService",
                        "https://fhir.hl7.org.uk/StructureDefinition/UKCore-HealthcareService"
                    ]
                },
                "identifier":  [
                    {
                        "system": "http://fhir.nhs.uk/Id/dos-service-id",
                        "value": "111111111"
                    }
                ],
                "active": true,
                "providedBy": {
                    "reference": "urn:uuid:d5ffd0cd-ec7e-48a1-84f1-91f4c0eb8fc5"
                },
                "name": "Consulting psychologists and/or psychology services"
            }
        },
        {
            "fullUrl": "urn:uuid:8c63d621-4d86-4f57-8699-e8e22d49935d",
            "resource": {
                "resourceType": "Encounter",
                "meta": {
                    "lastUpdated": "2021-11-26T15:00:00+00:00",
                    "profile":  [
                        "https://fhir.hl7.org.uk/StructureDefinition/UKCore-Encounter"
                    ]
                },
                "identifier":  [
                    {
                        "system": "https://sender.url/Id/case-number",
                        "value": "sender1234"
                    }
                ],
                "status": "triaged",
                "class": {
                    "system": "http://terminology.hl7.org/CodeSystem/v3-ActCode",
                    "code": "EMER",
                    "display": "emergency"
                },
                "subject": {
                    "reference": "urn:uuid:9589fb37-87a2-48d8-968f-b371429208a8"
                },
                "episodeOfCare":  [
                    {
                        "reference": "EpisodeOfCare/d877b820-e72b-44d1-a627-195f54bfc606"
                    }
                ],
                "period": {
                    "start": "2021-11-26T15:00:00+00:00"
                }
            }
        },
        {
            "fullUrl": "urn:uuid:68d3c42e-f76e-4f66-9498-d96e1040c81c",
            "resource": {
                "resourceType": "CarePlan",
                "meta": {
                    "lastUpdated": "2021-11-26T15:00:00+00:00",
                    "profile":  [
                        "https://fhir.hl7.org.uk/StructureDefinition/UKCore-CarePlan"
                    ]
                },
                "status": "active",
                "intent": "plan",
                "subject": {
                    "reference": "urn:uuid:9589fb37-87a2-48d8-968f-b371429208a8"
                },
                "period": {
                    "start": "2021-11-26T15:00:00+00:00"
                },
                "encounter": {
                    "reference": "urn:uuid:8c63d621-4d86-4f57-8699-e8e22d49935d"
                },
                "activity":  [
                    {
                        "outcomeCodeableConcept":  [
                            {
                                "coding":  [
                                    {
                                        "system": "https://fhir.nhs.uk/CodeSystem/pathways-sd-codes",
                                        "code": "SD4033",
                                        "display": "AMB new/worsening breathlessness"
                                    }
                                ]
                            },
                            {
                                "coding":  [
                                    {
                                        "system": "https://fhir.nhs.uk/CodeSystem/pathways-sg-codes",
                                        "code": "SG1137",
                                        "display": "Palpitations"
                                    }
                                ]
                            },
                            {
                                "coding":  [
                                    {
                                        "system": "https://fhir.nhs.uk/CodeSystem/pathways-dx-codes",
                                        "code": "Dx0122",
                                        "display": "Emergency Ambulance Response (Category 3)"
                                    }
                                ]
                            },
                            {
                                "coding":  [
                                    {
                                        "system": "https://fhir.nhs.uk/CodeSystem/arp-priority-code",
                                        "code": "C3",
                                        "display": "Cat3 Urgent"
                                    }
                                ]
                            },
                            {
                                "text": "CONSULTATION SUMMARY /n PRINTED ON 22/02/2022 10:52:18 CASE ID: e093dd1d-d377-4819-8c52-504b93de49da NHS PATHWAYS R32.2.0_Nightly (Alpha) /n PATIENT: Julie Jones TELEPHONE: AGE GROUP: Adult GENDER: Female PARTY: 3 POSTCODE: LS10 4YU NOTES: /n SKILLSET: 999 Call Handler CALL HANDLER USER ID: user1@nhs.net PATHWAY: PW1030 - Palpitations SYMPTOM GROUP: SG1137 - Palpitations SYMPTOM DISCRIMINATOR: SD4033 - AMB new/worsening breathlessness DISPOSITION: Dx0122 - Emergency Ambulance Response (Category 3) SELECTED CARE SERVICE: No care service selected /n CONSULTATION SUMMARY: Conscious Illness - Palpitations Warm to touch New/worsening breathlessness Breathing worsening in last hour No indication scene unsafe PATHWAYS ASSESSMENT: Cardiac arrest not identified at this point. The individual was conscious at the time of the assessment. The call was not from a health professional. It was not appropriate to speak to the patient. There was no blood loss. An illness or health problem was the main problem. - Palpitations The individual was not fighting for breath. The main reason for the assessment was not an allergic reaction, a heart attack, chest/upper back pain, probable stroke, recent fit/seizure or suicide attempt. The main reason for assessment was not new confusion, declared diabetic hypo/hyperglycaemia, successful resuscitation or ICD shock. The skin on the torso felt normal, warm or hot. Pathway Selected: PW1030, Palpitations The individual did not have an implanted cardioverter defibrillator. The individual was 35 years of age or more. There had been no crushing chest, upper back or abdominal pain, or chest pain spreading to the arm, neck or jaw in the previous 24 hours. There had been no episodes of inability to raise both arms, speech difficulty or unilateral facial weakness in the last week. There had been no episode of unilateral leg weakness in the last week. There had been no exposure to extremes of temperature in the previous 24 hours. There was new or worsening breathlessness since the onset of the problem. The breathing had worsened in the previous hour. There was no further information to help with dispatch. The individual did not have someone to stay with them. There was no safeguarding concern. The scene was safe. Pre-arrival instructions were considered appropriate. ADVICE GIVEN: Sit upright. Use prescribed inhalers, nebulisers or oxygen according to the instructions. Sit upright. Use prescribed inhalers, nebulisers or oxygen according to the instructions. If you can, ask for someone to meet and direct the vehicle. Shut any dogs away. If you do need to contact somebody do so now, then try and keep the line free as we may need to call you back. If there are any new symptoms, or their condition gets worse, changes or you have any other concerns call 999. Drinking caffeine or alcohol, or smoking and taking decongestants can all make the problem worse. Breathlessness or pain in the chest that is getting worse - CALL 999 Pain in the upper abdomen or upper back - CALL 999"
                            },
                            {
                                "text": "Pre-Triage Sieve, Patient breathing, Patient conscious, NOT noisy breathing, No NOC - Proceed to Triage"
                            }
                        ]
                    }
                ]
            }
        },
        {
            "fullUrl": "urn:uuid:9589fb37-87a2-48d8-968f-b371429208a8",
            "resource": {
                "resourceType": "Patient",
                "meta": {
                    "lastUpdated": "2021-11-26T15:00:00+00:00",
                    "profile":  [
                        "https://fhir.hl7.org.uk/StructureDefinition/UKCore-Patient"
                    ]
                },
                "extension":  [
                    {
                        "url": "https://fhir.hl7.org.uk/StructureDefinition/Extension-UKCore-EthnicCategory",
                        "valueCodeableConcept": {
                            "coding":  [
                                {
                                    "system": "https://fhir.hl7.org.uk/CodeSystem/UKCore-EthnicCategory",
                                    "code": "A",
                                    "display": "British, Mixed British"
                                }
                            ]
                        }
                    },
                    {
                        "url": "http://hl7.org/fhir/StructureDefinition/patient-religion",
                        "valueCodeableConcept": {
                            "coding":  [
                                {
                                    "system": "http://terminology.hl7.org/CodeSystem/v3-ReligiousAffiliation",
                                    "code": "1041",
                                    "display": "Roman Catholic Church"
                                }
                            ]
                        }
                    }
                ],
                "identifier":  [
                    {
                        "extension":  [
                            {
                                "url": "https://fhir.hl7.org.uk/StructureDefinition/Extension-UKCore-NHSNumberVerificationStatus",
                                "valueCodeableConcept": {
                                    "coding":  [
                                        {
                                            "system": "https://fhir.hl7.org.uk/CodeSystem/UKCore-NHSNumberVerificationStatus",
                                            "code": "number-present-and-verified",
                                            "display": "Number present and verified"
                                        }
                                    ]
                                }
                            }
                        ],
                        "system": "https://fhir.nhs.uk/Id/nhs-number",
                        "value": "3478526985"
                    }
                ],
                "name":  [
                    {
                        "use": "official",
                        "text": "Mrs Julie Jones",
                        "family": "Jones",
                        "given":  [
                            "Julie"
                        ],
                        "prefix":  [
                            "Mrs"
                        ]
                    }
                ],
                "gender": "female",
                "birthDate": "1959-05-04",
                "address":  [
                    {
                        "use": "home",
                        "type": "both",
                        "text": "22 Brightside Crescent, Overtown, West Yorkshire, LS10 4YU",
                        "line":  [
                            "22 Brightside Crescent"
                        ],
                        "city": "Overtown",
                        "district": "West Yorkshire",
                        "postalCode": "LS10 4YU"
                    }
                ],
                "contact":  [
                    {
                        "extension":  [
                            {
                                "url": "https://fhir.hl7.org.uk/StructureDefinition/Extension-UKCore-ContactRank",
                                "valuePositiveInt": 1
                            }
                        ],
                        "relationship":  [
                            {
                                "coding":  [
                                    {
                                        "system": "https://fhir.hl7.org.uk/ValueSet/UKCore-PersonRelationshipType",
                                        "code": "ONESELF",
                                        "display": "self"
                                    }
                                ]
                            }
                        ],
                        "telecom":  [
                            {
                                "system": "phone",
                                "value": "01138698975",
                                "use": "home",
                                "rank": 2
                            },
                            {
                                "system": "phone",
                                "value": "07736312544",
                                "use": "mobile",
                                "rank": 1
                            },
                            {
                                "system": "email",
                                "value": "jjones@hotmail.co.uk",
                                "use": "home",
                                "rank": 3
                            }
                        ]
                    },
                    {
                        "extension":  [
                            {
                                "url": "https://fhir.hl7.org.uk/StructureDefinition/Extension-UKCore-ContactRank",
                                "valuePositiveInt": 2
                            }
                        ],
                        "relationship":  [
                            {
                                "coding":  [
                                    {
                                        "system": "https://fhir.hl7.org.uk/ValueSet/UKCore-PersonRelationshipType",
                                        "code": "EP",
                                        "display": "Emergency contact person"
                                    }
                                ]
                            }
                        ],
                        "name": {
                            "family": "Grayson",
                            "given":  [
                                "Jack"
                            ]
                        },
                        "telecom":  [
                            {
                                "system": "phone",
                                "value": "0789 1234567",
                                "use": "mobile",
                                "rank": 1
                            }
                        ],
                        "gender": "male"
                    }
                ],
                "communication":  [
                    {
                        "language": {
                            "coding":  [
                                {
                                    "system": "https://fhir.hl7.org.uk/CodeSystem/UKCore-HumanLanguage",
                                    "code": "en",
                                    "display": "English"
                                }
                            ]
                        },
                        "preferred": true
                    }
                ],
                "generalPractitioner":  [
                    {
                        "reference": "urn:uuid:c8c21609-cb27-4958-8eb2-37c76f3def85"
                    }
                ]
            }
        },
        {
            "fullUrl": "urn:uuid:c8c21609-cb27-4958-8eb2-37c76f3def85",
            "resource": {
                "resourceType": "Organization",
                "meta": {
                    "lastUpdated": "2021-10-11T15:23:30+00:00",
                    "profile":  [
                        "https://fhir.hl7.org.uk/StructureDefinition/UKCore-Organization"
                    ]
                },
                "identifier":  [
                    {
                        "system": "https://fhir.nhs.uk/id/ods-organization-code",
                        "value": "G82080"
                    }
                ],
                "name": "Patient's Surgery"
            }
        },
        {
            "fullUrl": "urn:uuid:1e744e34-6bbb-4aa9-8b20-fa3bb91f9d8f",
            "resource": {
                "resourceType": "PractitionerRole",
                "meta": {
                    "lastUpdated": "2021-10-11T15:23:30+00:00",
                    "profile":  [
                        "https://fhir.hl7.org.uk/StructureDefinition/UKCore-PractitionerRole"
                    ]
                },
                "practitioner": {
                    "reference": "urn:uuid:07dec093-be12-42f4-ade5-0d582d255ef1"
                },
                "organization": {
                    "reference": "urn:uuid:c8c21609-cb27-4958-8eb2-37c76f3def85"
                },
                "specialty":  [
                    {
                        "coding":  [
                            {
                                "system": "http://snomed.info/sct",
                                "code": "408443003",
                                "display": "General medical practice"
                            }
                        ]
                    }
                ]
            }
        },
        {
            "fullUrl": "urn:uuid:07dec093-be12-42f4-ade5-0d582d255ef1",
            "resource": {
                "resourceType": "Practitioner",
                "meta": {
                    "lastUpdated": "2021-10-11T15:23:30+00:00",
                    "profile":  [
                        "https://fhir.hl7.org.uk/StructureDefinition/UKCore-Practitioner"
                    ]
                },
                "identifier":  [
                    {
                        "system": "https://fhir.nhs.uk/Id/sds-role-profile-id",
                        "value": "G823658"
                    }
                ],
                "name":  [
                    {
                        "family": "Smith",
                        "given":  [
                            "Alex"
                        ]
                    }
                ],
                "telecom":  [
                    {
                        "system": "phone",
                        "value": "0205663333",
                        "use": "work"
                    }
                ]
            }
        },
        {
            "fullUrl": "urn:uuid:b5e27389-3ca5-4cbc-9173-73f0c74915d9",
            "resource": {
                "resourceType": "Organization",
                "meta": {
                    "lastUpdated": "2021-11-26T15:00:00+00:00",
                    "profile":  [
                        "https://fhir.hl7.org.uk/StructureDefinition/UKCore-Organization"
                    ]
                },
                "name": "Practitioner Org"
            }
        },
        {
            "fullUrl": "urn:uuid:d5ffd0cd-ec7e-48a1-84f1-91f4c0eb8fc5",
            "resource": {
                "resourceType": "Organization",
                "meta": {
                    "lastUpdated": "2021-11-26T15:00:00+00:00",
                    "profile":  [
                        "https://fhir.hl7.org.uk/StructureDefinition/UKCore-Organization"
                    ]
                },
                "identifier":  [
                    {
                        "system": "https://fhir.nhs.uk/id/ods-organization-code",
                        "value": "RYE"
                    }
                ],
                "name": "Receiving/performing Organization"
            }
        },
        {
            "fullUrl": "urn:uuid:10397afd-479c-42ea-9d5d-e4024481e0f8",
            "resource": {
                "resourceType": "Organization",
                "meta": {
                    "lastUpdated": "2021-11-26T15:00:00+00:00",
                    "profile":  [
                        "https://fhir.hl7.org.uk/StructureDefinition/UKCore-Organization"
                    ]
                },
                "name": "Receiver Organization"
            }
        },
        {
            "fullUrl": "urn:uuid:07939a0c-2854-46ff-9282-ad906bc93679",
            "resource": {
                "resourceType": "Organization",
                "meta": {
                    "lastUpdated": "2021-11-26T15:00:00+00:00",
                    "profile":  [
                        "https://fhir.hl7.org.uk/StructureDefinition/UKCore-Organization"
                    ]
                },
                "identifier":  [
                    {
                        "system": "https://fhir.nhs.uk/id/ods-organization-code",
                        "value": "RND"
                    }
                ],
                "name": "Sender Organization"
            }
        },
        {
            "fullUrl": "urn:uuid:2ec99e82-a0af-4b70-bd53-1869d84b2ad1",
            "resource": {
                "resourceType": "Location",
                "meta": {
                    "lastUpdated": "2021-11-26T15:00:00+00:00",
                    "profile":  [
                        "https://fhir.hl7.org.uk/StructureDefinition/UKCore-Location"
                    ]
                },
                "extension":  [
                    {
                        "url": "https://fhir.nhs.uk/StructureDefinition/LocationExtension",
                        "extension":  [
                            {
                                "url": "UPRN",
                                "valueString": "0008755622"
                            },
                            {
                                "url": "eastings",
                                "valueString": "0.33424"
                            },
                            {
                                "url": "northings",
                                "valueString": "0.55634"
                            }
                        ]
                    }
                ],
                "name": "Briggate corner",
                "address": {
                    "line":  [
                        "20 The Headrow"
                    ],
                    "city": "Leeds",
                    "postalCode": "LS1 6PT",
                    "country": "UK"
                },
                "position": {
                    "longitude": 53.79957987629337,
                    "latitude": -1.5417544014466307
                }
            }
        },
        {
            "fullUrl": "urn:uuid:7d948662-bade-450e-b6c5-9bb6ee39cb56",
            "resource": {
                "resourceType": "Practitioner",
                "meta": {
                    "lastUpdated": "2021-11-26T15:00:00+00:00",
                    "profile":  [
                        "https://fhir.hl7.org.uk/StructureDefinition/UKCore-Practitioner"
                    ]
                },
                "identifier":  [
                    {
                        "system": "https://fhir.nhs.uk/Id/sds-role-profile-id",
                        "value": "PT2489"
                    }
                ],
                "name":  [
                    {
                        "family": "BLAKE",
                        "given":  [
                            "Marcy"
                        ]
                    }
                ],
                "telecom":  [
                    {
                        "system": "phone",
                        "value": "0205568263",
                        "use": "work"
                    }
                ]
            }
        },
        {
            "fullUrl": "urn:uuid:b923aa53-2376-4015-a07d-afe8bf2310eb",
            "resource": {
                "resourceType": "PractitionerRole",
                "meta": {
                    "lastUpdated": "2021-11-26T15:00:00+00:00",
                    "profile":  [
                        "https://fhir.hl7.org.uk/StructureDefinition/UKCore-PractitionerRole"
                    ]
                },
                "practitioner": {
                    "reference": "urn:uuid:7d948662-bade-450e-b6c5-9bb6ee39cb56"
                },
                "organization": {
                    "reference": "urn:uuid:b5e27389-3ca5-4cbc-9173-73f0c74915d9"
                },
                "code":  [
                    {
                        "coding":  [
                            {
                                "system": "http://snomed.info/sct",
                                "code": "224608005",
                                "display": "Administrative healthcare staff"
                            }
                        ]
                    }
                ],
                "specialty":  [
                    {
                        "coding":  [
                            {
                                "system": "http://snomed.info/sct",
                                "code": "408443003",
                                "display": "General medical practice"
                            }
                        ]
                    }
                ]
            }
        },
        {
            "fullUrl": "urn:uuid:c584542a-a1c6-4b77-a3e8-4a5b0b9cea09",
            "resource": {
                "resourceType": "Observation",
                "meta": {
                    "lastUpdated": "2021-11-26T15:00:00+00:00",
                    "profile":  [
                        "https://fhir.hl7.org.uk/StructureDefinition/UKCore-Observation"
                    ]
                },
                "status": "final",
                "code": {
                    "coding":  [
                        {
                            "system": "http://snomed.info/sct",
                            "code": "271594007",
                            "display": "Syncope (disorder)"
                        }
                    ]
                },
                "subject": {
                    "reference": "urn:uuid:9589fb37-87a2-48d8-968f-b371429208a8"
                },
                "effectiveDateTime": "2021-11-26T15:00:00+00:00"
            }
        },
        {
            "fullUrl": "urn:uuid:5b94d980-b9b6-42ce-8ca3-56676af6c0a7",
            "resource": {
                "resourceType": "Flag",
                "meta": {
                    "lastUpdated": "2021-11-26T15:00:00+00:00",
                    "profile":  [
                        "http://hl7.org/fhir/StructureDefinition/Flag",
                        "https://fhir.nhs.uk/StructureDefinition/BARSFlag-scene-safety"
                    ]
                },
                "status": "active",
                "category":  [
                    {
                        "coding":  [
                            {
                                "system": "https://fhir.nhs.uk/CodeSystem/flag-categories-bars",
                                "code": "SS",
                                "display": "Scene Safety"
                            }
                        ]
                    }
                ],
                "code": {
                    "coding":  [
                        {
                            "system": "https://fhir.nhs.uk/CodeSystem/scene-safety-codes-bars",
                            "code": "S",
                            "display": "The Scene is safe"
                        }
                    ]
                },
                "subject": {
                    "reference": "urn:uuid:2ec99e82-a0af-4b70-bd53-1869d84b2ad1"
                },
                "encounter": {
                    "reference": "urn:uuid:8c63d621-4d86-4f57-8699-e8e22d49935d"
                }
            }
        },
        {
            "fullUrl": "urn:uuid:1e91008e-96d0-438b-873c-c6d2c007fc29",
            "resource": {
                "resourceType": "Consent",
                "meta": {
                    "lastUpdated": "2021-11-26T15:00:00+00:00",
                    "profile":  [
                        "https://fhir.hl7.org.uk/StructureDefinition/UKCore-Consent"
                    ]
                },
                "status": "active",
                "scope": {
                    "coding":  [
                        {
                            "system": "http://terminology.hl7.org/CodeSystem/consentscope",
                            "code": "patient-privacy"
                        }
                    ]
                },
                "category":  [
                    {
                        "coding":  [
                            {
                                "system": "https://fhir.nhs.uk/CodeSystem/consent-categories-bars",
                                "code": "DRC",
                                "display": "Direct Care"
                            }
                        ]
                    }
                ],
                "patient": {
                    "reference": "urn:uuid:9589fb37-87a2-48d8-968f-b371429208a8"
                },
                "dateTime": "2021-11-26",
                "policyRule": {
                    "coding":  [
                        {
                            "system": "http://terminology.hl7.org/CodeSystem/v3-ActCode",
                            "code": "IMPLIED"
                        }
                    ]
                }
            }
        }
    ]
}